# File created on 2021-03-01 22:17:06
# inglass  lambda_max [nm]
0.0        305.9  518.77  658.58
1.0        306.04  518.87  656.42
2.0        306.18  519.57  657.16
3.0        306.14  520.13  657.38
4.0        306.06  520.11  662.68
5.0        305.96  520.84  649.44
6.0        305.99  522.01
7.0        306.25  523.68  656.3
8.0        305.98  525.09  656.25
9.0        306.68  525.19  656.55
10.0       524.03  636.62
11.0       525.09  613.22
12.0       305.18  527.89  636.8
13.0       306.36  530.57  645.86
14.0       306.93  532.92  652.01
15.0       536.45  661.24
16.0       527.86  563.26  673.16
17.0       308.48  526.4  602.95  669.13
18.0       531.75  648.23
19.0       538.01
20.0       541.95  651.78
21.0       551.09  643.34
22.0       308.21  530.88  562.82  651.03
23.0       308.48  528.89  598.57  657.97
24.0       540.05
25.0       547.8
26.0       552.45  673.45
27.0       559.1  650.2
28.0       308.02  566.59
29.0       307.41  319.58  333.26  545.3  596.99  649.8
30.0       549.56  641.53
31.0       557.93
32.0       562.12  661.73
33.0       569.04  693.11
34.0       579.59
35.0       307.07  318.95  331.9  346.14  361.86  549.16  597.2  642.49
36.0       552.81  640.4
37.0       564.39  671.6
38.0       569.38
39.0       574.49  687.95
40.0       584.87
41.0       307.21  319.01  331.86  345.97  361.46  378.79  549.9  598.0  640.05
42.0       559.83
43.0       574.18
44.0       582.67
45.0       583.17  693.16
46.0       593.89
47.0       307.79  319.53  332.38  346.49  361.99  379.43  551.95  601.31
48.0       564.05
49.0       576.01
50.0       586.27
51.0       589.19  688.21
52.0       598.42
53.0       308.32  320.06  332.91  346.93  362.32  379.23  397.82  418.59  553.42  604.41  640.19
54.0       570.65
55.0       592.18
56.0       588.45  613.93
57.0       594.64
58.0       604.07
59.0       556.35  609.21  647.5
60.0       596.97
61.0       598.06
62.0       605.43
63.0       619.13
64.0       629.46
65.0       530.07  561.14  611.69  657.25
66.0       602.64
67.0       606.42
68.0       635.1
69.0       628.64
70.0       637.14
71.0       449.62  474.97  503.97  534.41  569.49  618.88  668.75
72.0       611.3
73.0       631.12
74.0       657.25
75.0       641.44
76.0       663.88
77.0       542.9  580.08  628.94  686.23
78.0       627.76
79.0       653.12
80.0       684.97
81.0       668.34
82.0       600.35  652.56
83.0       558.03  647.93
84.0       639.79  696.95
85.0       694.59
86.0       683.61
87.0       669.47
88.0       688.99
89.0       684.48
90.0       656.82
91.0       694.62
